Folder: Measurements-and-Instrumentation/Lab9

Note: README.md
Measurements-and-Instrumentation
================================

Measurement and Instrumentation class material

File: xLab9_W3_1.csv
Time sec,Extension in,Strain 1 %,Load lbf,Tensile stress ksi,Cycle Count ,Total Cycle Count ,Repetitions Count ,Segment ID ,Marked Data ,PIP Count ,Tensile extension in,Tensile strain %,Displacement (Strain 1) in,True strain %,Corrected Position in,Tenacity gf/tex,True stress psi
0,0,0.001109508,111.5654,63.75168,0,0,0,5,0,0,1.11E-05,0.001109508,1.11E-05,0.001109502,0,506.0524,63752.39
4.004,0.00066437,0.003166962,147.2989,84.17081,0,0,0,3204,0,0,3.17E-05,0.003166962,3.17E-05,0.003166912,0.00066437,668.1367,84173.47
8.104,0.00134983,0.005179515,185.1975,105.8271,0,0,0,3204,0,0,5.18E-05,0.005179515,5.18E-05,0.005179381,0.00134983,840.0416,105832.6
12.204,0.002031073,0.007124276,221.7446,126.7112,0,0,0,3204,0,0,7.12E-05,0.007124276,7.12E-05,0.007124022,0.002031073,1005.817,126720.2
16.304,0.002718643,0.009127489,258.0221,147.4412,0,0,0,3204,0,0,9.13E-05,0.009127488,9.13E-05,0.009127072,0.002718643,1170.368,147454.6
20.404,0.003401995,0.0110617,293.479,167.7023,0,0,0,3204,0,0,0.000110617,0.0110617,0.000110617,0.01106108,0.003401995,1331.198,167720.8
24.504,0.004083237,0.012999,328.0407,187.4519,0,0,0,3204,0,0,0.00012999,0.012999,0.00012999,0.01299815,0.004083237,1487.968,187476.2
28.604,0.004766589,0.01467948,362.2319,206.9897,0,0,0,3204,0,0,0.000146795,0.01467948,0.000146795,0.0146784,0.004766589,1643.056,207020
32.704,0.005447831,0.01660399,395.5767,226.0438,0,0,0,3204,0,0,0.00016604,0.016604,0.00016604,0.01660262,0.005447831,1794.306,226081.3
36.804,0.0061354,0.0183658,428.6297,244.9313,0,0,0,3204,0,0,0.000183658,0.0183658,0.000183658,0.01836412,0.0061354,1944.232,244976.3
40.904,0.006816643,0.02020459,461.0835,263.4763,0,0,0,3204,0,0,0.000202046,0.02020459,0.000202046,0.02020255,0.006816643,2091.44,263529.5
45.004,0.007497886,0.02198549,492.8616,281.6352,0,0,0,3204,0,0,0.000219855,0.02198549,0.000219855,0.02198307,0.007497886,2235.583,281697.1
49.104,0.008183347,0.02377557,524.5903,299.7659,0,0,0,3204,0,0,0.000237756,0.02377557,0.000237756,0.02377275,0.008183347,2379.501,299837.1
53.204,0.008864589,0.02530205,555.7596,317.5769,0,0,0,3204,0,0,0.000253021,0.02530205,0.000253021,0.02529885,0.008864589,2520.883,317657.3
57.304,0.009552159,0.02713823,586.4767,335.1295,0,0,0,3204,0,0,0.000271382,0.02713823,0.000271382,0.02713455,0.009552159,2660.214,335220.5
61.404,0.01023551,0.02875739,616.5882,352.3361,0,0,0,3204,0,0,0.000287574,0.02875739,0.000287574,0.02875325,0.01023551,2796.797,352437.4
65.504,0.01091675,0.03025265,645.7833,369.019,0,0,0,3204,0,0,0.000302527,0.03025265,0.000302527,0.03024807,0.01091675,2929.224,369130.6
69.604,0.011598,0.03188864,674.9173,385.667,0,0,0,3204,0,0,0.000318887,0.03188865,0.000318886,0.03188356,0.011598,3061.374,385790
73.704,0.01228135,0.03359501,703.6805,402.1031,0,0,0,3204,0,0,0.00033595,0.03359501,0.00033595,0.03358937,0.01228135,3191.841,402238.2
77.804,0.01296681,0.03508589,732.425,418.5286,0,0,0,3204,0,0,0.000350859,0.03508589,0.000350859,0.03507974,0.01296681,3322.224,418675.4
81.90401,0.01365016,0.0366989,760.8166,434.7523,0,0,0,3204,0,0,0.000366989,0.0366989,0.000366989,0.03669217,0.01365016,3451.006,434911.9
86.00401,0.0143314,0.03826385,788.6655,450.666,0,0,0,3204,0,0,0.000382639,0.03826385,0.000382639,0.03825653,0.0143314,3577.327,450838.4
90.104,0.01501686,0.03971294,816.5003,466.5716,0,0,0,3204,0,0,0.000397129,0.03971294,0.000397129,0.03970505,0.01501686,3703.583,466756.9
94.204,0.01569811,0.04137238,843.9175,482.2386,0,0,0,3204,0,0,0.000413724,0.04137238,0.000413724,0.04136382,0.01569811,3827.946,482438.1
98.304,0.01638568,0.042798,871.0236,497.7278,0,0,0,3204,0,0,0.00042798,0.042798,0.00042798,0.04278885,0.01638568,3950.897,497940.8
102.404,0.01706903,0.04422823,897.6086,512.9192,0,0,0,3204,0,0,0.000442282,0.04422823,0.000442282,0.04421846,0.01706903,4071.484,513146
106.504,0.01775027,0.04566403,923.5052,527.7172,0,0,0,3204,0,0,0.00045664,0.04566403,0.00045664,0.04565361,0.01775027,4188.949,527958.2
110.604,0.01843151,0.0471276,949.5441,542.5967,0,0,0,3204,0,0,0.000471276,0.0471276,0.000471276,0.0471165,0.01843151,4307.06,542852.4
114.704,0.01911275,0.04865459,975.0229,557.1559,0,0,0,3204,0,0,0.000486546,0.04865459,0.000486546,0.04864276,0.01911275,4422.63,557427
118.804,0.01980032,0.04997889,999.9849,571.4199,0,0,0,3204,0,0,0.000499789,0.04997889,0.000499789,0.0499664,0.01980032,4535.855,571705.5
122.904,0.02048368,0.05132393,1024.619,585.4965,0,0,0,3204,0,0,0.000513239,0.05132394,0.000513239,0.05131077,0.02048368,4647.593,585797
127.004,0.02116492,0.05257656,1048.93,599.3884,0,0,0,3204,0,0,0.000525766,0.05257656,0.000525766,0.05256274,0.02116492,4757.865,599703.5
131.104,0.02185038,0.05401311,1072.887,613.0782,0,0,0,3204,0,0,0.000540131,0.05401311,0.000540131,0.05399853,0.02185038,4866.533,613409.3
135.204,0.02253162,0.0552665,1096.427,626.5298,0,0,0,3204,0,0,0.000552665,0.0552665,0.000552665,0.05525124,0.02253162,4973.311,626876.1
139.304,0.02321919,0.05647811,1119.593,639.7673,0,0,0,3204,0,0,0.000564781,0.05647811,0.000564781,0.05646216,0.02321919,5078.388,640128.6
143.404,0.02390254,0.05764181,1142.653,652.9444,0,0,0,3204,0,0,0.000576418,0.05764181,0.000576418,0.0576252,0.02390254,5182.986,653320.7
147.504,0.02458379,0.05889807,1165.787,666.1642,0,0,0,3204,0,0,0.000588981,0.05889807,0.000588981,0.05888073,0.02458379,5287.923,666556.6
151.604,0.02526503,0.06019913,1188.628,679.2158,0,0,0,3204,0,0,0.000601991,0.06019913,0.000601991,0.06018102,0.02526503,5391.525,679624.7
155.704,0.02594627,0.0614326,1211.68,692.3886,0,0,0,3204,0,0,0.000614326,0.0614326,0.000614326,0.06141374,0.02594627,5496.089,692814
159.804,0.02663384,0.06262221,1234.829,705.6163,0,0,0,3204,0,0,0.000626222,0.06262221,0.000626222,0.06260261,0.02663384,5601.089,706058.2
163.904,0.02731719,0.06383444,1257.677,718.6723,0,0,0,3204,0,0,0.000638344,0.06383444,0.000638344,0.06381407,0.02731719,5704.726,719131.1
168.004,0.02800055,0.06515054,1280.705,731.8314,0,0,0,3204,0,0,0.000651505,0.06515054,0.000651505,0.06512933,0.02800055,5809.181,732308.2
172.104,0.028686,0.0663009,1303.636,744.9348,0,0,0,3204,0,0,0.000663009,0.0663009,0.000663009,0.06627893,0.028686,5913.194,745428.7
176.204,0.02936514,0.06759374,1326.353,757.9161,0,0,0,3204,0,0,0.000675937,0.06759374,0.000675937,0.06757091,0.02936514,6016.237,758428.4
180.304,0.0300506,0.06865583,1349.087,770.907,0,0,0,3204,0,0,0.000686558,0.06865583,0.000686558,0.06863228,0.0300506,6119.357,771436.3
184.404,0.03073395,0.06993509,1371.665,783.8088,0,0,0,3204,0,0,0.000699351,0.06993509,0.000699351,0.06991065,0.03073395,6221.771,784357
188.504,0.0314173,0.07118721,1394.438,796.8219,0,0,0,3204,0,0,0.000711872,0.07118721,0.000711872,0.07116188,0.0314173,6325.066,797389.1
192.604,0.03209855,0.07236193,1416.83,809.6171,0,0,0,3204,0,0,0.000723619,0.07236193,0.000723619,0.07233576,0.03209855,6426.632,810202.9
196.704,0.03277979,0.07369122,1439.628,822.6443,0,0,0,3204,0,0,0.000736912,0.07369122,0.000736912,0.07366408,0.03277979,6530.042,823250.6
200.804,0.03346525,0.07481793,1462.573,835.7557,0,0,0,3204,0,0,0.000748179,0.07481793,0.000748179,0.07478996,0.03346525,6634.118,836381
204.904,0.0341486,0.07610068,1485.283,848.7332,0,0,0,3204,0,0,0.000761007,0.07610068,0.000761007,0.07607174,0.0341486,6737.131,849379.1
209.004,0.03483406,0.07728134,1507.715,861.5512,0,0,0,3204,0,0,0.000772813,0.07728134,0.000772813,0.07725149,0.03483406,6838.879,862217.1
213.104,0.03551952,0.07867685,1530.208,874.4044,0,0,0,3204,0,0,0.000786769,0.07867685,0.000786768,0.07864592,0.03551952,6940.905,875092.3
217.204,0.03619866,0.07981314,1552.743,887.2816,0,0,0,3204,0,0,0.000798132,0.07981315,0.000798132,0.07978131,0.03619866,7043.123,887989.7
221.304,0.03688412,0.08110489,1575.675,900.3858,0,0,0,3204,0,0,0.000811049,0.08110489,0.000811049,0.08107202,0.03688412,7147.143,901116
225.404,0.03756747,0.08232225,1598.205,913.2601,0,0,0,3204,0,0,0.000823223,0.08232225,0.000823222,0.08228838,0.03756747,7249.338,914012
229.504,0.03825293,0.08358627,1620.991,926.2805,0,0,0,3204,0,0,0.000835863,0.08358627,0.000835863,0.08355136,0.03825293,7352.692,927054.8
233.604,0.03893206,0.08485924,1643.281,939.0176,0,0,0,3204,0,0,0.000848592,0.08485924,0.000848592,0.08482325,0.03893206,7453.797,939814.4
237.704,0.0396133,0.08612369,1665.922,951.9554,0,0,0,3204,0,0,0.000861237,0.08612369,0.000861237,0.08608662,0.0396133,7556.496,952775.3
241.804,0.04030087,0.08729315,1688.915,965.0944,0,0,0,3204,0,0,0.000872932,0.08729316,0.000872932,0.08725508,0.04030087,7660.792,965936.9
245.904,0.04098423,0.08862939,1711.48,977.9886,0,0,0,3204,0,0,0.000886294,0.08862939,0.000886294,0.08859014,0.04098423,7763.144,978855.4
250.004,0.04166758,0.08984555,1734.251,991.0004,0,0,0,3204,0,0,0.000898456,0.08984555,0.000898456,0.08980522,0.04166758,7866.429,991890.7
254.104,0.04235304,0.09118273,1756.944,1003.968,0,0,0,3204,0,0,0.000911827,0.09118273,0.000911827,0.09114119,0.04235304,7969.365,1004884
258.204,0.04303217,0.09246637,1779.478,1016.844,0,0,0,3204,0,0,0.000924664,0.09246637,0.000924664,0.09242364,0.04303217,8071.577,1017785
262.304,0.04371763,0.09376372,1802.306,1029.889,0,0,0,3204,0,0,0.000937637,0.09376372,0.000937637,0.09371979,0.04371763,8175.125,1030855
266.404,0.04440098,0.09508226,1824.57,1042.611,0,0,0,3204,0,0,0.000950823,0.09508226,0.000950823,0.09503709,0.04440098,8276.11,1043603
270.504,0.04508645,0.09638421,1847.181,1055.532,0,0,0,3204,0,0,0.000963842,0.09638421,0.000963842,0.09633779,0.04508645,8378.671,1056549
274.604,0.04576558,0.09779529,1869.161,1068.092,0,0,0,3204,0,0,0.000977953,0.09779529,0.000977953,0.0977475,0.04576558,8478.372,1069137
278.704,0.04644682,0.09907898,1891.26,1080.72,0,0,0,3204,0,0,0.00099079,0.09907898,0.00099079,0.09902992,0.04644682,8578.611,1081791
282.804,0.04713228,0.1003378,1913.841,1093.623,0,0,0,3204,0,0,0.001003378,0.1003378,0.001003378,0.1002875,0.04713228,8681.037,1094721
286.904,0.04781563,0.1016781,1935.937,1106.25,0,0,0,3204,0,0,0.001016781,0.1016781,0.001016781,0.1016264,0.04781563,8781.263,1107374
291.004,0.04849898,0.10314,1958.031,1118.875,0,0,0,3204,0,0,0.001031399,0.10314,0.001031399,0.1030868,0.04849898,8881.482,1120029
295.104,0.04918656,0.1045373,1980.291,1131.595,0,0,0,3204,0,0,0.001045373,0.1045373,0.001045373,0.1044827,0.04918656,8982.45,1132778
298.824,0.04980241,0.1058605,2000.008,1142.862,0,0,0,3204,0,0,0.001058605,0.1058605,0.001058605,0.1058045,0.04980241,9071.884,1144071